<Bundle xmlns="http://hl7.org/fhir">
   <type value="transaction"></type>
   <entry>
      <fullUrl value="urn:uuid:bb73165c-c7b9-4342-8e28-531f07fa7735"></fullUrl>
      <resource>
         <Organization xmlns="http://hl7.org/fhir">
            <meta>
               <profile value="http://highmed.org/fhir/StructureDefinition/organization"></profile>
               <tag>
                  <system value="http://highmed.org/fhir/CodeSystem/read-access-tag"></system>
                  <code value="ALL"></code>
               </tag>
            </meta>
            <extension url="http://highmed.org/fhir/StructureDefinition/extension-certificate-thumbprint">
               <valueString value="ef6c1570be859f7a6b8c606da0769b38bf6655ff1c85466ef5aa5fb836f6c1808fc5369602b7c217dd23b70bb40e655a9f352232a77b81be8cc6d1a515ffae82"></valueString>
            </extension>
            <identifier>
               <system value="http://highmed.org/sid/organization-identifier"></system>
               <value value="Test_ZARS"></value>
            </identifier>
            <active value="true"></active>
            <type>
               <coding>
                  <system value="http://highmed.org/fhir/CodeSystem/organization-type"></system>
                  <code value="HRP"></code>
               </coding>
            </type>
            <name value="Test ZARS"></name>
            <endpoint>
               <reference value="urn:uuid:169e782c-2673-40e9-8b30-f1dc46dba984"></reference>
               <type value="Endpoint"></type>
            </endpoint>
         </Organization>
      </resource>
      <request>
         <method value="POST"></method>
         <url value="Organization"></url>
         <ifNoneExist value="identifier=http://highmed.org/sid/organization-identifier|Test_ZARS"></ifNoneExist>
      </request>
   </entry>
   <entry>
      <fullUrl value="urn:uuid:cf62edc2-cc5d-43ed-ac0e-caf09f7326c3"></fullUrl>
      <resource>
         <Organization xmlns="http://hl7.org/fhir">
            <meta>
               <profile value="http://highmed.org/fhir/StructureDefinition/organization"></profile>
               <tag>
                  <system value="http://highmed.org/fhir/CodeSystem/read-access-tag"></system>
                  <code value="ALL"></code>
               </tag>
            </meta>
            <extension url="http://highmed.org/fhir/StructureDefinition/extension-certificate-thumbprint">
               <valueString value="27995733026b00ea3ec04531372ddda8613ae28bbd8575728623a5bb7dfa2985af7055dc6f4fcf660770d6508c4b90523c676323a067645ef6a7e92448e34fa3"></valueString>
            </extension>
            <identifier>
               <system value="http://highmed.org/sid/organization-identifier"></system>
               <value value="Test_DIC_1"></value>
            </identifier>
            <active value="true"></active>
            <type>
               <coding>
                  <system value="http://highmed.org/fhir/CodeSystem/organization-type"></system>
                  <code value="MeDIC"></code>
               </coding>
            </type>
            <name value="Test DIC 1"></name>
            <endpoint>
               <reference value="urn:uuid:296cc73f-3a25-4aff-90f1-c5657a3ccbf1"></reference>
               <type value="Endpoint"></type>
            </endpoint>
         </Organization>
      </resource>
      <request>
         <method value="POST"></method>
         <url value="Organization"></url>
         <ifNoneExist value="identifier=http://highmed.org/sid/organization-identifier|Test_DIC_1"></ifNoneExist>
      </request>
   </entry>
   <entry>
      <fullUrl value="urn:uuid:169e782c-2673-40e9-8b30-f1dc46dba984"></fullUrl>
      <resource>
         <Endpoint xmlns="http://hl7.org/fhir">
            <meta>
               <profile value="http://highmed.org/fhir/StructureDefinition/endpoint"></profile>
               <tag>
                  <system value="http://highmed.org/fhir/CodeSystem/read-access-tag"></system>
                  <code value="ALL"></code>
               </tag>
            </meta>
            <identifier>
               <system value="http://highmed.org/sid/endpoint-identifier"></system>
               <value value="Test_ZARS_Endpoint"></value>
            </identifier>
            <status value="active"></status>
            <connectionType>
               <system value="http://terminology.hl7.org/CodeSystem/endpoint-connection-type"></system>
               <code value="hl7-fhir-rest"></code>
            </connectionType>
            <managingOrganization>
               <reference value="urn:uuid:bb73165c-c7b9-4342-8e28-531f07fa7735"></reference>
               <type value="Organization"></type>
            </managingOrganization>
            <payloadType>
               <coding>
                  <system value="http://hl7.org/fhir/resource-types"></system>
                  <code value="Task"></code>
               </coding>
            </payloadType>
            <payloadMimeType value="application/fhir+json"></payloadMimeType>
            <payloadMimeType value="application/fhir+xml"></payloadMimeType>
            <address value="https://zars/fhir"></address>
         </Endpoint>
      </resource>
      <request>
         <method value="POST"></method>
         <url value="Endpoint"></url>
         <ifNoneExist value="identifier=http://highmed.org/sid/endpoint-identifier|Test_ZARS_Endpoint"></ifNoneExist>
      </request>
   </entry>
   <entry>
      <fullUrl value="urn:uuid:296cc73f-3a25-4aff-90f1-c5657a3ccbf1"></fullUrl>
      <resource>
         <Endpoint xmlns="http://hl7.org/fhir">
            <meta>
               <profile value="http://highmed.org/fhir/StructureDefinition/endpoint"></profile>
               <tag>
                  <system value="http://highmed.org/fhir/CodeSystem/read-access-tag"></system>
                  <code value="ALL"></code>
               </tag>
            </meta>
            <identifier>
               <system value="http://highmed.org/sid/endpoint-identifier"></system>
               <value value="Test_DIC_1_Endpoint"></value>
            </identifier>
            <status value="active"></status>
            <connectionType>
               <system value="http://terminology.hl7.org/CodeSystem/endpoint-connection-type"></system>
               <code value="hl7-fhir-rest"></code>
            </connectionType>
            <managingOrganization>
               <reference value="urn:uuid:cf62edc2-cc5d-43ed-ac0e-caf09f7326c3"></reference>
               <type value="Organization"></type>
            </managingOrganization>
            <payloadType>
               <coding>
                  <system value="http://hl7.org/fhir/resource-types"></system>
                  <code value="Task"></code>
               </coding>
            </payloadType>
            <payloadMimeType value="application/fhir+json"></payloadMimeType>
            <payloadMimeType value="application/fhir+xml"></payloadMimeType>
            <address value="https://dic-1/fhir"></address>
         </Endpoint>
      </resource>
      <request>
         <method value="POST"></method>
         <url value="Endpoint"></url>
         <ifNoneExist value="identifier=http://highmed.org/sid/endpoint-identifier|Test_DIC_1_Endpoint"></ifNoneExist>
      </request>
   </entry>
   <entry>
      <fullUrl value="urn:uuid:c4a7b553-01b1-4b50-bcb3-1467f5ae6791"></fullUrl>
      <resource>
         <Organization xmlns="http://hl7.org/fhir">
            <meta>
               <profile value="http://highmed.org/fhir/StructureDefinition/organization-parent"></profile>
               <tag>
                  <system value="http://highmed.org/fhir/CodeSystem/read-access-tag"></system>
                  <code value="ALL"></code>
               </tag>
            </meta>
            <identifier>
               <system value="http://highmed.org/sid/organization-identifier"></system>
               <value value="netzwerk-universitaetsmedizin.de"></value>
            </identifier>
            <active value="true"></active>
            <name value="Netzwerk Universitätsmedizin"></name>
         </Organization>
      </resource>
      <request>
         <method value="POST"></method>
         <url value="Organization"></url>
         <ifNoneExist value="identifier=http://highmed.org/sid/organization-identifier|netzwerk-universitaetsmedizin.de"></ifNoneExist>
      </request>
   </entry>
   <entry>
      <fullUrl value="urn:uuid:6da23450-e2e2-49e1-8591-02c553d53e3b"></fullUrl>
      <resource>
         <OrganizationAffiliation xmlns="http://hl7.org/fhir">
            <meta>
               <profile value="http://highmed.org/fhir/StructureDefinition/organization-affiliation"></profile>
               <tag>
                  <system value="http://highmed.org/fhir/CodeSystem/read-access-tag"></system>
                  <code value="ALL"></code>
               </tag>
            </meta>
            <active value="true"></active>
            <organization>
               <reference value="urn:uuid:c4a7b553-01b1-4b50-bcb3-1467f5ae6791"></reference>
               <type value="Organization"></type>
            </organization>
            <participatingOrganization>
               <reference value="urn:uuid:bb73165c-c7b9-4342-8e28-531f07fa7735"></reference>
               <type value="Organization"></type>
            </participatingOrganization>
            <code>
               <coding>
                  <system value="http://highmed.org/fhir/CodeSystem/organization-type"></system>
                  <code value="HRP"></code>
               </coding>
            </code>
            <endpoint>
               <reference value="urn:uuid:169e782c-2673-40e9-8b30-f1dc46dba984"></reference>
               <type value="Endpoint"></type>
            </endpoint>
         </OrganizationAffiliation>
      </resource>
      <request>
         <method value="POST"></method>
         <url value="OrganizationAffiliation"></url>
         <ifNoneExist value="primary-organization:identifier=http://highmed.org/sid/organization-identifier|netzwerk-universitaetsmedizin.de&amp;participating-organization:identifier=http://highmed.org/sid/organization-identifier|Test_ZARS"></ifNoneExist>
      </request>
   </entry>
   <entry>
      <fullUrl value="urn:uuid:b84cddc8-83da-4bcc-9fdc-5e78cf709944"></fullUrl>
      <resource>
         <OrganizationAffiliation xmlns="http://hl7.org/fhir">
            <meta>
               <profile value="http://highmed.org/fhir/StructureDefinition/organization-affiliation"></profile>
               <tag>
                  <system value="http://highmed.org/fhir/CodeSystem/read-access-tag"></system>
                  <code value="ALL"></code>
               </tag>
            </meta>
            <active value="true"></active>
            <organization>
               <reference value="urn:uuid:c4a7b553-01b1-4b50-bcb3-1467f5ae6791"></reference>
               <type value="Organization"></type>
            </organization>
            <participatingOrganization>
               <reference value="urn:uuid:cf62edc2-cc5d-43ed-ac0e-caf09f7326c3"></reference>
               <type value="Organization"></type>
            </participatingOrganization>
            <code>
               <coding>
                  <system value="http://highmed.org/fhir/CodeSystem/organization-type"></system>
                  <code value="MeDIC"></code>
               </coding>
            </code>
            <endpoint>
               <reference value="urn:uuid:296cc73f-3a25-4aff-90f1-c5657a3ccbf1"></reference>
               <type value="Endpoint"></type>
            </endpoint>
         </OrganizationAffiliation>
      </resource>
      <request>
         <method value="POST"></method>
         <url value="OrganizationAffiliation"></url>
         <ifNoneExist value="primary-organization:identifier=http://highmed.org/sid/organization-identifier|netzwerk-universitaetsmedizin.de&amp;participating-organization:identifier=http://highmed.org/sid/organization-identifier|Test_DIC_1"></ifNoneExist>
      </request>
   </entry>
</Bundle>
