<Bundle xmlns="http://hl7.org/fhir">
   <type value="transaction"></type>
   <entry>
      <fullUrl value="urn:uuid:bb73165c-c7b9-4342-8e28-531f07fa7735"></fullUrl>
      <resource>
         <Organization xmlns="http://hl7.org/fhir">
            <meta>
               <profile value="http://highmed.org/fhir/StructureDefinition/organization"></profile>
               <tag>
                  <system value="http://highmed.org/fhir/CodeSystem/read-access-tag"></system>
                  <code value="ALL"></code>
               </tag>
            </meta>
            <extension url="http://highmed.org/fhir/StructureDefinition/extension-certificate-thumbprint">
               <valueString value="c63bf99d9c3460f217c5e7218d23574f31e01264e287287d50df197766f893fdaa6069aaf22d93c67c9d565a4becfaa6bf4cf3e3ff9676c571a54a99215cafc0"></valueString>
            </extension>
            <identifier>
               <system value="http://highmed.org/sid/organization-identifier"></system>
               <value value="Test_ZARS"></value>
            </identifier>
            <active value="true"></active>
            <type>
               <coding>
                  <system value="http://highmed.org/fhir/CodeSystem/organization-type"></system>
                  <code value="HRP"></code>
               </coding>
            </type>
            <name value="Test ZARS"></name>
            <endpoint>
               <reference value="urn:uuid:e6af43e9-76ff-46d7-b9aa-e5ee74562ab1"></reference>
               <type value="Endpoint"></type>
            </endpoint>
         </Organization>
      </resource>
      <request>
         <method value="POST"></method>
         <url value="Organization"></url>
         <ifNoneExist value="identifier=http://highmed.org/sid/organization-identifier|Test_ZARS"></ifNoneExist>
      </request>
   </entry>
   <entry>
      <fullUrl value="urn:uuid:cf62edc2-cc5d-43ed-ac0e-caf09f7326c3"></fullUrl>
      <resource>
         <Organization xmlns="http://hl7.org/fhir">
            <meta>
               <profile value="http://highmed.org/fhir/StructureDefinition/organization"></profile>
               <tag>
                  <system value="http://highmed.org/fhir/CodeSystem/read-access-tag"></system>
                  <code value="ALL"></code>
               </tag>
            </meta>
            <extension url="http://highmed.org/fhir/StructureDefinition/extension-certificate-thumbprint">
               <valueString value="0f11b966823ec15189f17d4fc0df9eb4a7cb576f1de73cb8d7449af35f1285c47e96e1ffc1ecf3aba928617ed7fd06e9f33751d795a9b4d4bb8c8e6c7559d848"></valueString>
            </extension>
            <identifier>
               <system value="http://highmed.org/sid/organization-identifier"></system>
               <value value="Test_DIC_1"></value>
            </identifier>
            <active value="true"></active>
            <type>
               <coding>
                  <system value="http://highmed.org/fhir/CodeSystem/organization-type"></system>
                  <code value="MeDIC"></code>
               </coding>
            </type>
            <name value="Test DIC 1"></name>
            <endpoint>
               <reference value="urn:uuid:ad0a4700-6f4c-4f4b-bf70-3a7a3f24f2fa"></reference>
               <type value="Endpoint"></type>
            </endpoint>
         </Organization>
      </resource>
      <request>
         <method value="POST"></method>
         <url value="Organization"></url>
         <ifNoneExist value="identifier=http://highmed.org/sid/organization-identifier|Test_DIC_1"></ifNoneExist>
      </request>
   </entry>
   <entry>
      <fullUrl value="urn:uuid:55901940-02db-40bf-9a6e-bdfdd0ddb7bf"></fullUrl>
      <resource>
         <Organization xmlns="http://hl7.org/fhir">
            <meta>
               <profile value="http://highmed.org/fhir/StructureDefinition/organization"></profile>
               <tag>
                  <system value="http://highmed.org/fhir/CodeSystem/read-access-tag"></system>
                  <code value="ALL"></code>
               </tag>
            </meta>
            <extension url="http://highmed.org/fhir/StructureDefinition/extension-certificate-thumbprint">
               <valueString value="966468d468293d4f79980b605b37ca9fdce3ac8b2aaf03740568d1ae3b38dc206e0a7ab3d222d5d825076def0dd5033dca49c3fbb4c6d94e356e8b51bd3881ca"></valueString>
            </extension>
            <identifier>
               <system value="http://highmed.org/sid/organization-identifier"></system>
               <value value="Test_DIC_2"></value>
            </identifier>
            <active value="true"></active>
            <type>
               <coding>
                  <system value="http://highmed.org/fhir/CodeSystem/organization-type"></system>
                  <code value="MeDIC"></code>
               </coding>
            </type>
            <name value="Test DIC 2"></name>
            <endpoint>
               <reference value="urn:uuid:6b2ba3fb-b8eb-4677-86fa-9e5285736b92"></reference>
               <type value="Endpoint"></type>
            </endpoint>
         </Organization>
      </resource>
      <request>
         <method value="POST"></method>
         <url value="Organization"></url>
         <ifNoneExist value="identifier=http://highmed.org/sid/organization-identifier|Test_DIC_2"></ifNoneExist>
      </request>
   </entry>
   <entry>
      <fullUrl value="urn:uuid:e6af43e9-76ff-46d7-b9aa-e5ee74562ab1"></fullUrl>
      <resource>
         <Endpoint xmlns="http://hl7.org/fhir">
            <meta>
               <profile value="http://highmed.org/fhir/StructureDefinition/endpoint"></profile>
               <tag>
                  <system value="http://highmed.org/fhir/CodeSystem/read-access-tag"></system>
                  <code value="ALL"></code>
               </tag>
            </meta>
            <identifier>
               <system value="http://highmed.org/sid/endpoint-identifier"></system>
               <value value="Test_ZARS_Endpoint"></value>
            </identifier>
            <status value="active"></status>
            <connectionType>
               <system value="http://terminology.hl7.org/CodeSystem/endpoint-connection-type"></system>
               <code value="hl7-fhir-rest"></code>
            </connectionType>
            <managingOrganization>
               <reference value="urn:uuid:bb73165c-c7b9-4342-8e28-531f07fa7735"></reference>
               <type value="Organization"></type>
            </managingOrganization>
            <payloadType>
               <coding>
                  <system value="http://hl7.org/fhir/resource-types"></system>
                  <code value="Task"></code>
               </coding>
            </payloadType>
            <payloadMimeType value="application/fhir+json"></payloadMimeType>
            <payloadMimeType value="application/fhir+xml"></payloadMimeType>
            <address value="https://zars/fhir"></address>
         </Endpoint>
      </resource>
      <request>
         <method value="POST"></method>
         <url value="Endpoint"></url>
         <ifNoneExist value="identifier=http://highmed.org/sid/endpoint-identifier|Test_ZARS_Endpoint"></ifNoneExist>
      </request>
   </entry>
   <entry>
      <fullUrl value="urn:uuid:ad0a4700-6f4c-4f4b-bf70-3a7a3f24f2fa"></fullUrl>
      <resource>
         <Endpoint xmlns="http://hl7.org/fhir">
            <meta>
               <profile value="http://highmed.org/fhir/StructureDefinition/endpoint"></profile>
               <tag>
                  <system value="http://highmed.org/fhir/CodeSystem/read-access-tag"></system>
                  <code value="ALL"></code>
               </tag>
            </meta>
            <identifier>
               <system value="http://highmed.org/sid/endpoint-identifier"></system>
               <value value="Test_DIC_1_Endpoint"></value>
            </identifier>
            <status value="active"></status>
            <connectionType>
               <system value="http://terminology.hl7.org/CodeSystem/endpoint-connection-type"></system>
               <code value="hl7-fhir-rest"></code>
            </connectionType>
            <managingOrganization>
               <reference value="urn:uuid:cf62edc2-cc5d-43ed-ac0e-caf09f7326c3"></reference>
               <type value="Organization"></type>
            </managingOrganization>
            <payloadType>
               <coding>
                  <system value="http://hl7.org/fhir/resource-types"></system>
                  <code value="Task"></code>
               </coding>
            </payloadType>
            <payloadMimeType value="application/fhir+json"></payloadMimeType>
            <payloadMimeType value="application/fhir+xml"></payloadMimeType>
            <address value="https://dic-1/fhir"></address>
         </Endpoint>
      </resource>
      <request>
         <method value="POST"></method>
         <url value="Endpoint"></url>
         <ifNoneExist value="identifier=http://highmed.org/sid/endpoint-identifier|Test_DIC_1_Endpoint"></ifNoneExist>
      </request>
   </entry>
   <entry>
      <fullUrl value="urn:uuid:6b2ba3fb-b8eb-4677-86fa-9e5285736b92"></fullUrl>
      <resource>
         <Endpoint xmlns="http://hl7.org/fhir">
            <meta>
               <profile value="http://highmed.org/fhir/StructureDefinition/endpoint"></profile>
               <tag>
                  <system value="http://highmed.org/fhir/CodeSystem/read-access-tag"></system>
                  <code value="ALL"></code>
               </tag>
            </meta>
            <identifier>
               <system value="http://highmed.org/sid/endpoint-identifier"></system>
               <value value="Test_DIC_2_Endpoint"></value>
            </identifier>
            <status value="active"></status>
            <connectionType>
               <system value="http://terminology.hl7.org/CodeSystem/endpoint-connection-type"></system>
               <code value="hl7-fhir-rest"></code>
            </connectionType>
            <managingOrganization>
               <reference value="urn:uuid:55901940-02db-40bf-9a6e-bdfdd0ddb7bf"></reference>
               <type value="Organization"></type>
            </managingOrganization>
            <payloadType>
               <coding>
                  <system value="http://hl7.org/fhir/resource-types"></system>
                  <code value="Task"></code>
               </coding>
            </payloadType>
            <payloadMimeType value="application/fhir+json"></payloadMimeType>
            <payloadMimeType value="application/fhir+xml"></payloadMimeType>
            <address value="https://dic-2/fhir"></address>
         </Endpoint>
      </resource>
      <request>
         <method value="POST"></method>
         <url value="Endpoint"></url>
         <ifNoneExist value="identifier=http://highmed.org/sid/endpoint-identifier|Test_DIC_2_Endpoint"></ifNoneExist>
      </request>
   </entry>
   <entry>
      <fullUrl value="urn:uuid:c4a7b553-01b1-4b50-bcb3-1467f5ae6791"></fullUrl>
      <resource>
         <Organization xmlns="http://hl7.org/fhir">
            <meta>
               <profile value="http://highmed.org/fhir/StructureDefinition/organization-parent"></profile>
               <tag>
                  <system value="http://highmed.org/fhir/CodeSystem/read-access-tag"></system>
                  <code value="ALL"></code>
               </tag>
            </meta>
            <identifier>
               <system value="http://highmed.org/sid/organization-identifier"></system>
               <value value="netzwerk-universitaetsmedizin.de"></value>
            </identifier>
            <active value="true"></active>
            <name value="Netzwerk Universit&#xe4;tsmedizin"></name>
         </Organization>
      </resource>
      <request>
         <method value="POST"></method>
         <url value="Organization"></url>
         <ifNoneExist value="identifier=http://highmed.org/sid/organization-identifier|netzwerk-universitaetsmedizin.de"></ifNoneExist>
      </request>
   </entry>
   <entry>
      <fullUrl value="urn:uuid:6da23450-e2e2-49e1-8591-02c553d53e3b"></fullUrl>
      <resource>
         <OrganizationAffiliation xmlns="http://hl7.org/fhir">
            <meta>
               <profile value="http://highmed.org/fhir/StructureDefinition/organization-affiliation"></profile>
               <tag>
                  <system value="http://highmed.org/fhir/CodeSystem/read-access-tag"></system>
                  <code value="ALL"></code>
               </tag>
            </meta>
            <active value="true"></active>
            <organization>
               <reference value="urn:uuid:c4a7b553-01b1-4b50-bcb3-1467f5ae6791"></reference>
               <type value="Organization"></type>
            </organization>
            <participatingOrganization>
               <reference value="urn:uuid:bb73165c-c7b9-4342-8e28-531f07fa7735"></reference>
               <type value="Organization"></type>
            </participatingOrganization>
            <code>
               <coding>
                  <system value="http://highmed.org/fhir/CodeSystem/organization-type"></system>
                  <code value="HRP"></code>
               </coding>
            </code>
            <endpoint>
               <reference value="urn:uuid:e6af43e9-76ff-46d7-b9aa-e5ee74562ab1"></reference>
               <type value="Endpoint"></type>
            </endpoint>
         </OrganizationAffiliation>
      </resource>
      <request>
         <method value="POST"></method>
         <url value="OrganizationAffiliation"></url>
         <ifNoneExist value="primary-organization:identifier=http://highmed.org/sid/organization-identifier|netzwerk-universitaetsmedizin.de&amp;participating-organization:identifier=http://highmed.org/sid/organization-identifier|Test_ZARS"></ifNoneExist>
      </request>
   </entry>
   <entry>
      <fullUrl value="urn:uuid:b84cddc8-83da-4bcc-9fdc-5e78cf709944"></fullUrl>
      <resource>
         <OrganizationAffiliation xmlns="http://hl7.org/fhir">
            <meta>
               <profile value="http://highmed.org/fhir/StructureDefinition/organization-affiliation"></profile>
               <tag>
                  <system value="http://highmed.org/fhir/CodeSystem/read-access-tag"></system>
                  <code value="ALL"></code>
               </tag>
            </meta>
            <active value="true"></active>
            <organization>
               <reference value="urn:uuid:c4a7b553-01b1-4b50-bcb3-1467f5ae6791"></reference>
               <type value="Organization"></type>
            </organization>
            <participatingOrganization>
               <reference value="urn:uuid:cf62edc2-cc5d-43ed-ac0e-caf09f7326c3"></reference>
               <type value="Organization"></type>
            </participatingOrganization>
            <code>
               <coding>
                  <system value="http://highmed.org/fhir/CodeSystem/organization-type"></system>
                  <code value="MeDIC"></code>
               </coding>
            </code>
            <endpoint>
               <reference value="urn:uuid:ad0a4700-6f4c-4f4b-bf70-3a7a3f24f2fa"></reference>
               <type value="Endpoint"></type>
            </endpoint>
         </OrganizationAffiliation>
      </resource>
      <request>
         <method value="POST"></method>
         <url value="OrganizationAffiliation"></url>
         <ifNoneExist value="primary-organization:identifier=http://highmed.org/sid/organization-identifier|netzwerk-universitaetsmedizin.de&amp;participating-organization:identifier=http://highmed.org/sid/organization-identifier|Test_DIC_1"></ifNoneExist>
      </request>
   </entry>
   <entry>
      <fullUrl value="urn:uuid:01a2d3fa-8c4d-4cf3-b383-de2bb356245a"></fullUrl>
      <resource>
         <OrganizationAffiliation xmlns="http://hl7.org/fhir">
            <meta>
               <profile value="http://highmed.org/fhir/StructureDefinition/organization-affiliation"></profile>
               <tag>
                  <system value="http://highmed.org/fhir/CodeSystem/read-access-tag"></system>
                  <code value="ALL"></code>
               </tag>
            </meta>
            <active value="true"></active>
            <organization>
               <reference value="urn:uuid:c4a7b553-01b1-4b50-bcb3-1467f5ae6791"></reference>
               <type value="Organization"></type>
            </organization>
            <participatingOrganization>
               <reference value="urn:uuid:55901940-02db-40bf-9a6e-bdfdd0ddb7bf"></reference>
               <type value="Organization"></type>
            </participatingOrganization>
            <code>
               <coding>
                  <system value="http://highmed.org/fhir/CodeSystem/organization-type"></system>
                  <code value="MeDIC"></code>
               </coding>
            </code>
            <endpoint>
               <reference value="urn:uuid:6b2ba3fb-b8eb-4677-86fa-9e5285736b92"></reference>
               <type value="Endpoint"></type>
            </endpoint>
         </OrganizationAffiliation>
      </resource>
      <request>
         <method value="POST"></method>
         <url value="OrganizationAffiliation"></url>
         <ifNoneExist value="primary-organization:identifier=http://highmed.org/sid/organization-identifier|netzwerk-universitaetsmedizin.de&amp;participating-organization:identifier=http://highmed.org/sid/organization-identifier|Test_DIC_2"></ifNoneExist>
      </request>
   </entry>
</Bundle>